Folder: gca_seminar_2017-I/data

File: uv_vis_data.csv
Sn Oxide,,SnSiO2 0.13%,,SnSiO2 0.5%,,SnSiO2 2%,,SnSiO2 6%,
wavelength (nm),intensity,wavelength (nm),intensity,wavelength (nm),intensity,wavelength (nm),intensity,wavelength (nm),intensity
194.58,121.374,194.58,1.27199,194.58,13.9898,194.58,67.7737,194.58,77.8818
203.49,0.192447,203.49,0.0356755,203.49,0,203.49,0.108252,203.49,0.0312207
212.4,0.0003066663,212.4,1.48839,212.4,0.207306,212.4,0.00122667,212.4,0.00575851
221.3,2.37375,221.3,16.7269,221.3,7.59801,221.3,2.90079,221.3,3.07509
230.18,16.935,230.18,32.5379,230.18,22.7753,230.18,18.7547,230.18,17.6517
239.06,26.4693,239.06,26.4159,239.06,22.6182,239.06,26.8979,239.06,26.2562
247.93,25.8652,247.93,16.8152,247.93,15.8851,247.93,23.9195,247.93,25.9161
256.8,23.8257,256.8,9.13464,256.8,9.78797,256.8,19.2183,256.8,24.3946
265.65,21.3062,265.65,3.84248,265.65,4.79136,265.65,13.6981,265.65,21.6957
274.49,17.4945,274.49,1.22465,274.49,1.82399,274.49,7.49247,274.49,17.1561
283.32,15.5463,283.32,0.391607,283.32,0.655423,283.32,3.69069,283.32,14.1636
292.15,12.4073,292.15,0.152439,292.15,0.225921,292.15,1.33247,292.15,10.212
300.97,7.45956,300.97,0.0761791,300.97,0.0761791,300.97,0.347023,300.97,5.76797
309.77,2.98966,309.77,0.0484595,309.77,0.0269291,309.77,0.0656166,309.77,2.52485
318.57,0.850784,318.57,0.0363676,318.57,0.0110421,318.57,0.0102393,318.57,0.939121
327.36,0.206559,327.36,0.0277707,327.36,0.00464757,327.36,0.0009180395,327.36,0.297445
336.14,0.0557253,336.14,0.0228697,336.14,0.00229921,336.14,5.44192e-05,336.14,0.0785813
344.91,0.0158291,344.91,0.019654,344.91,0.00129217,344.91,0,344.91,0.018659
353.67,0.00398182,353.67,0.0168244,353.67,0.0006021882,353.67,0,353.67,0.00398182
362.42,0.001685275,362.42,0.0143365,362.42,0.0004213188,362.42,1.17033e-05,362.42,0.0007490111
371.16,0.0009038478,371.16,0.0128994,371.16,0.0002789654,371.16,4.46345e-05,371.16,0.0001004275
379.89,0.0008627836,379.89,0.0130483,379.89,0.0002662912,379.89,4.26066e-05,379.89,4.26066e-05
388.62,0.0004987448,388.62,0.0110843,388.62,0.0001628554,388.62,4.07139e-05,388.62,0
397.33,0.0004771182,397.33,0.0112561,397.33,0.0001557937,397.33,3.89484e-05,397.33,0
406.04,0.0002330961,406.04,0.00896021,406.04,8.39146e-05,406.04,8.39146e-05,406.04,0
414.73,0.0002234301,414.73,0.00973262,414.73,8.04348e-05,414.73,8.04348e-05,414.73,0
423.42,0.0002143532,423.42,0.00877991,423.42,7.71671e-05,423.42,3.42965e-05,423.42,0
432.09,0.0002964058,432.09,0.00645506,432.09,7.41014e-05,432.09,0.000032934,432.09,0
440.76,0.0002848595,440.76,0.00620361,440.76,7.12149e-05,440.76,3.16511e-05,440.76,0
449.42,0.0002739872,449.42,0.00514487,449.42,0.000030443,449.42,0.000030443,449.42,0
458.07,0.0002637372,458.07,0.0049524,458.07,2.93041e-05,458.07,2.93041e-05,458.07,0
466.7,0.00017644,466.7,0.00514499,466.7,2.82304e-05,466.7,2.82304e-05,466.7,0
475.33,0.0001088584,475.33,0.00459927,475.33,2.72146e-05,475.33,6.12329e-05,475.33,6.80365e-06
483.95,0.0001050151,483.95,0.00478475,483.95,2.62538e-05,483.95,0.000059071,483.95,6.56344e-06
492.56,0.0001013758,492.56,0.00428313,492.56,0.000025344,492.56,5.70239e-05,492.56,0.000006336
501.17,9.79225e-05,501.17,0.0038251,501.17,6.12016e-06,501.17,5.50814e-05,501.17,6.12016e-06
509.76,5.32407e-05,509.76,0.00369727,509.76,5.91563e-06,509.76,5.32407e-05,509.76,5.91563e-06
518.34,5.14927e-05,518.34,0.00357588,518.34,5.72141e-06,518.34,5.14927e-05,518.34,5.72141e-06
526.91,4.98313e-05,526.91,0.003460507,526.91,5.53681e-06,526.91,4.98313e-05,526.91,5.53681e-06
535.47,4.82508e-05,535.47,0.00335075,535.47,5.3612e-06,535.47,4.82508e-05,535.47,5.3612e-06
544.03,4.67444e-05,544.03,0.00324614,544.03,5.19382e-06,544.03,4.67444e-05,544.03,5.19382e-06
552.57,4.53107e-05,552.57,0.00314657,552.57,5.03452e-06,552.57,4.53107e-05,552.57,5.03452e-06
561.1,4.39435e-05,561.1,0.00305163,561.1,4.88261e-06,561.1,4.39435e-05,561.1,4.88261e-06
569.63,1.89499e-05,569.63,0.00296092,569.63,4.73747e-06,569.63,4.26373e-05,569.63,4.73747e-06
578.14,4.13913e-05,578.14,0.0028744,578.14,0.000004599,578.14,4.13913e-05,578.14,0.000004599
586.64,4.02005e-05,586.64,0.0027917,586.64,4.46673e-06,586.64,4.02005e-05,586.64,4.46673e-06
595.14,3.90604e-05,595.14,0.002933871,595.14,0.00000434,595.14,3.90604e-05,595.14,0.00000434
603.62,1.68758e-05,603.62,0.00285202,603.62,0.000004219,603.62,3.79706e-05,603.62,0.000004219
612.1,3.69258e-05,612.1,0.00256429,612.1,4.10287e-06,612.1,3.69258e-05,612.1,4.10287e-06
620.56,1.59671e-05,620.56,0.00249485,620.56,3.99177e-06,620.56,3.59259e-05,620.56,3.99177e-06
629.02,1.55405e-05,629.02,0.0024282,629.02,3.88511e-06,629.02,0.000034966,629.02,3.88511e-06
637.47,3.40452e-05,637.47,0.00255717,637.47,3.7828e-06,637.47,3.40452e-05,637.47,3.7828e-06
645.9,1.47388e-05,645.9,0.002302937,645.9,3.6847e-06,645.9,3.31623e-05,645.9,3.6847e-06
654.33,1.43615e-05,654.33,0.00224398,654.33,3.59037e-06,654.33,3.23133e-05,654.33,3.59037e-06
662.74,1.39993e-05,662.74,0.00218739,662.74,3.49982e-06,662.74,3.14984e-05,662.74,3.49982e-06
671.15,1.36507e-05,671.15,0.00213291,671.15,3.41266e-06,671.15,0.000030714,671.15,3.41266e-06
679.55,1.33153e-05,679.55,0.00208051,679.55,3.32882e-06,679.55,2.99593e-05,679.55,3.32882e-06
687.93,1.29928e-05,687.93,0.00203013,687.93,3.24821e-06,687.93,2.92339e-05,687.93,3.24821e-06
696.31,0.000012682,696.31,0.00198156,696.31,3.1705e-06,696.31,2.85345e-05,696.31,3.1705e-06
704.68,1.23825e-05,704.68,0.00193477,704.68,3.09563e-06,704.68,2.78606e-05,704.68,3.09563e-06
713.03,1.20942e-05,713.03,0.00188972,713.03,3.02355e-06,713.03,4.83768e-05,713.03,3.02355e-06
721.38,1.18158e-05,721.38,0.00170148,721.38,0.000002954,721.38,2.65856e-05,721.38,0.000002954
729.72,1.15473e-05,729.72,0.00166281,729.72,2.88682e-06,729.72,4.61892e-05,729.72,2.88682e-06
738.05,1.12881e-05,738.05,0.00162549,738.05,0.000002822,738.05,4.51524e-05,738.05,0.000002822
746.36,1.10381e-05,746.36,0.00172471,746.36,2.75953e-06,746.36,4.41526e-05,746.36,2.75953e-06
754.67,1.07964e-05,754.67,0.00155468,754.67,2.6991e-06,754.67,4.31855e-05,754.67,2.6991e-06
762.97,1.05628e-05,762.97,0.00152104,762.97,2.64069e-06,762.97,4.22511e-05,762.97,2.64069e-06
771.25,1.03372e-05,771.25,0.00148855,771.25,2.5843e-06,771.25,4.13487e-05,771.25,2.5843e-06
779.53,1.01188e-05,779.53,0.0013382,779.53,2.52969e-06,779.53,0.000040475,779.53,2.52969e-06
787.79,9.90767e-06,787.79,0.0014267,787.79,2.47692e-06,787.79,3.96307e-05,787.79,2.47692e-06
796.05,9.70313e-06,796.05,0.00139725,796.05,2.42578e-06,796.05,3.88125e-05,796.05,2.42578e-06
804.3,2.37627e-06,804.3,0.00136873,804.3,2.37627e-06,804.3,3.80204e-05,804.3,2.37627e-06
812.53,2.32838e-06,812.53,0.00123171,812.53,2.32838e-06,812.53,3.72541e-05,812.53,2.32838e-06
820.76,2.28192e-06,820.76,0.00131439,820.76,2.28192e-06,820.76,3.65107e-05,820.76,2.28192e-06
828.97,8.94777e-06,828.97,0.00128848,828.97,2.23694e-06,828.97,3.57911e-05,828.97,2.23694e-06
837.18,2.19328e-06,837.18,0.00126333,837.18,2.19328e-06,837.18,3.50925e-05,837.18,2.19328e-06
845.37,0.000008604,845.37,0.00123897,845.37,0.000002151,845.37,3.44159e-05,845.37,0.000002151
853.56,8.43965e-06,853.56,0.00111614,853.56,2.10991e-06,853.56,3.37586e-05,853.56,2.10991e-06
861.73,2.07009e-06,861.73,0.00109508,861.73,2.07009e-06,861.73,3.31215e-05,861.73,2.07009e-06
869.9,2.03139e-06,869.9,0.00117008,869.9,2.03139e-06,869.9,3.25023e-05,869.9,2.03139e-06
878.05,7.97543e-06,878.05,0.00124616,878.05,1.99386e-06,878.05,3.19017e-05,878.05,1.99386e-06
886.2,7.82941e-06,886.2,0.00112744,886.2,1.95735e-06,886.2,3.13176e-05,886.2,1.95735e-06
894.33,7.68771e-06,894.33,0.00110703,894.33,1.92193e-06,894.33,3.07508e-05,894.33,1.92193e-06
902.45,0.00000755,902.45,0.0010872,902.45,1.8875e-06,902.45,0.0000302,902.45,1.8875e-06
910.56,0.000001854,910.56,0.00106792,910.56,0.000001854,910.56,2.96644e-05,910.56,0.000001854
918.67,0,918.67,0.00104915,918.67,1.82143e-06,918.67,0.000029143,918.67,1.82143e-06
926.76,0,926.76,0.00111861,926.76,1.78977e-06,926.76,2.86364e-05,926.76,1.78977e-06
934.84,1.58307e-05,934.84,0.00118906,934.84,0.000001759,934.84,1.58307e-05,934.84,0
942.91,0.000006916,942.91,0.0009958974,942.91,0.000001729,942.91,1.55609e-05,942.91,0.000001729
950.97,1.6998e-06,950.97,0.0008991966,950.97,1.6998e-06,950.97,2.71969e-05,950.97,1.6998e-06
959.02,1.67139e-06,959.02,0.0009627195,959.02,1.67139e-06,959.02,2.67422e-05,959.02,1.67139e-06
967.06,1.64371e-06,967.06,0.0009467782,967.06,1.64371e-06,967.06,2.62994e-05,967.06,1.64371e-06
975.09,1.61675e-06,975.09,0.0008552614,975.09,1.61675e-06,975.09,0.000025868,975.09,1.61675e-06
983.11,6.36192e-06,983.11,0.0009161168,983.11,1.59048e-06,983.11,2.54477e-05,983.11,1.59048e-06
991.12,1.56488e-06,991.12,0.000901369,991.12,1.56488e-06,991.12,3.91219e-05,991.12,1.56488e-06
999.11,1.53995e-06,999.11,0.0008146324,999.11,1.53995e-06,999.11,2.46392e-05,999.11,1.53995e-06
1007.1,1.51561e-06,1007.1,0.0008017576,1007.1,1.51561e-06,1007.1,3.78902e-05,1007.1,1.51561e-06
1015.08,1.49187e-06,1015.08,0.0007892012,1015.08,1.49187e-06,1015.08,0.00002387,1015.08,1.49187e-06
1023.04,1.46875e-06,1023.04,0.0007769678,1023.04,1.46875e-06,1023.04,3.67187e-05,1023.04,1.46875e-06
1031,1.44616e-06,1031,0.0007650167,1031,1.44616e-06,1031,3.61539e-05,1031,1.44616e-06
1038.94,0,1038.94,0.0007533683,1038.94,1.42414e-06,1038.94,3.56034e-05,1038.94,1.42414e-06
1046.87,0,1046.87,0.000741998,1046.87,1.40264e-06,1046.87,5.04951e-05,1046.87,1.40264e-06
1054.8,0,1054.8,0.0006687098,1054.8,1.38163e-06,1054.8,4.97387e-05,1054.8,5.52653e-06
1062.71,0,1062.71,0.0006587922,1062.71,1.36114e-06,1062.71,6.66959e-05,1062.71,5.44456e-06
1070.61,0,1070.61,0.0006491056,1070.61,1.34113e-06,1070.61,6.57152e-05,1070.61,5.36451e-06
1078.5,0,1078.5,0.000639643,1078.5,0,1078.5,6.47572e-05,1078.5,1.18942e-05
1086.38,0,1086.38,0.0006303974,1086.38,1.30247e-06,1086.38,8.33583e-05,1086.38,1.17223e-05
1094.25,0,1094.25,0.0006791335,1094.25,1.28381e-06,1094.25,0.0001039883,1094.25,1.15543e-05
1102.11,1.26556e-06,1102.11,0.000612531,1102.11,0,1102.11,0.0001531328,1102.11,0.000020249
1108.31,0.462612,1108.31,0,1108.31,0.00392452,1108.31,0.161287,1108.31,0.0763491